{
  "DM": {
    "domain": "DM",
    "description": "Demographics",
    "domain_class": "Special-Purpose",
    "structure": "One record per subject",
    "variables": [
      {
        "name": "STUDYID",
        "label": "Study Identifier",
        "data_type": "Char",
        "core": "Req",
        "cdisc_notes": "Unique identifier for a study.",
        "codelist_code": null,
        "order": 1
      },
      {
        "name": "DOMAIN",
        "label": "Domain Abbreviation",
        "data_type": "Char",
        "core": "Req",
        "cdisc_notes": "Two-character abbreviation for the domain.",
        "codelist_code": "C66734",
        "order": 2
      },
      {
        "name": "USUBJID",
        "label": "Unique Subject Identifier",
        "data_type": "Char",
        "core": "Req",
        "cdisc_notes": "Identifier used to uniquely identify a subject across all studies for all applications or submissions involving the product.",
        "codelist_code": null,
        "order": 3
      },
      {
        "name": "SUBJID",
        "label": "Subject Identifier for the Study",
        "data_type": "Char",
        "core": "Req",
        "cdisc_notes": "Subject identifier, which must be unique within the study.",
        "codelist_code": null,
        "order": 4
      },
      {
        "name": "RFSTDTC",
        "label": "Subject Reference Start Date/Time",
        "data_type": "Char",
        "core": "Exp",
        "cdisc_notes": "Reference start date/time for the subject in ISO 8601 character format. Usually the date of first dose of study treatment.",
        "codelist_code": null,
        "order": 5
      },
      {
        "name": "RFENDTC",
        "label": "Subject Reference End Date/Time",
        "data_type": "Char",
        "core": "Exp",
        "cdisc_notes": "Reference end date/time for the subject in ISO 8601 character format. Usually the date of last dose of study treatment.",
        "codelist_code": null,
        "order": 6
      },
      {
        "name": "RFXSTDTC",
        "label": "Date/Time of First Study Treatment",
        "data_type": "Char",
        "core": "Exp",
        "cdisc_notes": "First date/time of study treatment, in ISO 8601 format.",
        "codelist_code": null,
        "order": 7
      },
      {
        "name": "RFXENDTC",
        "label": "Date/Time of Last Study Treatment",
        "data_type": "Char",
        "core": "Exp",
        "cdisc_notes": "Last date/time of study treatment, in ISO 8601 format.",
        "codelist_code": null,
        "order": 8
      },
      {
        "name": "RFICDTC",
        "label": "Date/Time of Informed Consent",
        "data_type": "Char",
        "core": "Exp",
        "cdisc_notes": "Date/time of informed consent in ISO 8601 character format.",
        "codelist_code": null,
        "order": 9
      },
      {
        "name": "RFPENDTC",
        "label": "Date/Time of End of Participation",
        "data_type": "Char",
        "core": "Exp",
        "cdisc_notes": "Date/time when subject ended participation or follow-up, in ISO 8601 format.",
        "codelist_code": null,
        "order": 10
      },
      {
        "name": "DTHDTC",
        "label": "Date/Time of Death",
        "data_type": "Char",
        "core": "Exp",
        "cdisc_notes": "Date/time of death in ISO 8601 character format.",
        "codelist_code": null,
        "order": 11
      },
      {
        "name": "DTHFL",
        "label": "Subject Death Flag",
        "data_type": "Char",
        "core": "Exp",
        "cdisc_notes": "Indicates the subject died. Should be Y or null.",
        "codelist_code": "C66742",
        "order": 12
      },
      {
        "name": "SITEID",
        "label": "Study Site Identifier",
        "data_type": "Char",
        "core": "Req",
        "cdisc_notes": "Unique identifier for a site within a study.",
        "codelist_code": null,
        "order": 13
      },
      {
        "name": "BRTHDTC",
        "label": "Date/Time of Birth",
        "data_type": "Char",
        "core": "Perm",
        "cdisc_notes": "Date/time of birth in ISO 8601 character format.",
        "codelist_code": null,
        "order": 14
      },
      {
        "name": "AGE",
        "label": "Age",
        "data_type": "Num",
        "core": "Exp",
        "cdisc_notes": "Age expressed in AGEU. May be derived from BRTHDTC and RFSTDTC.",
        "codelist_code": null,
        "order": 15
      },
      {
        "name": "AGEU",
        "label": "Age Units",
        "data_type": "Char",
        "core": "Exp",
        "cdisc_notes": "Units associated with AGE.",
        "codelist_code": "C66781",
        "order": 16
      },
      {
        "name": "SEX",
        "label": "Sex",
        "data_type": "Char",
        "core": "Req",
        "cdisc_notes": "Sex of the subject.",
        "codelist_code": "C66731",
        "order": 17
      },
      {
        "name": "RACE",
        "label": "Race",
        "data_type": "Char",
        "core": "Exp",
        "cdisc_notes": "Race of the subject. Sponsors should refer to FDA guidance for collection of race and ethnicity data.",
        "codelist_code": "C74457",
        "order": 18
      },
      {
        "name": "ETHNIC",
        "label": "Ethnicity",
        "data_type": "Char",
        "core": "Perm",
        "cdisc_notes": "Ethnicity of the subject.",
        "codelist_code": "C66790",
        "order": 19
      },
      {
        "name": "ARMCD",
        "label": "Planned Arm Code",
        "data_type": "Char",
        "core": "Exp",
        "cdisc_notes": "Short name of the arm to which the subject was assigned, limited to 20 characters.",
        "codelist_code": null,
        "order": 20
      },
      {
        "name": "ARM",
        "label": "Description of Planned Arm",
        "data_type": "Char",
        "core": "Exp",
        "cdisc_notes": "Name of the arm to which the subject was assigned.",
        "codelist_code": null,
        "order": 21
      },
      {
        "name": "ACTARMCD",
        "label": "Actual Arm Code",
        "data_type": "Char",
        "core": "Exp",
        "cdisc_notes": "Short name of the actual arm, limited to 20 characters.",
        "codelist_code": null,
        "order": 22
      },
      {
        "name": "ACTARM",
        "label": "Description of Actual Arm",
        "data_type": "Char",
        "core": "Exp",
        "cdisc_notes": "Description of the actual arm.",
        "codelist_code": null,
        "order": 23
      },
      {
        "name": "ARMNRS",
        "label": "Reason Arm and/or Actual Arm is Null",
        "data_type": "Char",
        "core": "Exp",
        "cdisc_notes": "A coded reason that arm variables (ARM, ARMCD, ACTARM, ACTARMCD) are null.",
        "codelist_code": null,
        "order": 24
      },
      {
        "name": "COUNTRY",
        "label": "Country",
        "data_type": "Char",
        "core": "Req",
        "cdisc_notes": "Country of the investigational site in which the subject participated in the trial, using ISO 3166-1 alpha-3 codes.",
        "codelist_code": "ISO3166",
        "order": 25
      },
      {
        "name": "DMDTC",
        "label": "Date/Time of Collection",
        "data_type": "Char",
        "core": "Perm",
        "cdisc_notes": "Date/time of demographic data collection.",
        "codelist_code": null,
        "order": 26
      },
      {
        "name": "DMDY",
        "label": "Study Day of Collection",
        "data_type": "Num",
        "core": "Perm",
        "cdisc_notes": "Study day of collection, measured as integer days.",
        "codelist_code": null,
        "order": 27
      }
    ],
    "key_variables": [
      "STUDYID",
      "USUBJID"
    ]
  },
  "AE": {
    "domain": "AE",
    "description": "Adverse Events",
    "domain_class": "Events",
    "structure": "One record per adverse event per subject",
    "variables": [
      {
        "name": "STUDYID",
        "label": "Study Identifier",
        "data_type": "Char",
        "core": "Req",
        "cdisc_notes": "Unique identifier for a study.",
        "codelist_code": null,
        "order": 1
      },
      {
        "name": "DOMAIN",
        "label": "Domain Abbreviation",
        "data_type": "Char",
        "core": "Req",
        "cdisc_notes": "Two-character abbreviation for the domain.",
        "codelist_code": "C66734",
        "order": 2
      },
      {
        "name": "USUBJID",
        "label": "Unique Subject Identifier",
        "data_type": "Char",
        "core": "Req",
        "cdisc_notes": "Identifier used to uniquely identify a subject across all studies.",
        "codelist_code": null,
        "order": 3
      },
      {
        "name": "AESEQ",
        "label": "Sequence Number",
        "data_type": "Num",
        "core": "Req",
        "cdisc_notes": "Sequence number to ensure uniqueness of records within a domain for a subject.",
        "codelist_code": null,
        "order": 4
      },
      {
        "name": "AESPID",
        "label": "Sponsor-Defined Identifier",
        "data_type": "Char",
        "core": "Perm",
        "cdisc_notes": "Sponsor-defined reference number.",
        "codelist_code": null,
        "order": 5
      },
      {
        "name": "AETERM",
        "label": "Reported Term for the Adverse Event",
        "data_type": "Char",
        "core": "Req",
        "cdisc_notes": "Verbatim name of the event.",
        "codelist_code": null,
        "order": 6
      },
      {
        "name": "AEMODIFY",
        "label": "Modified Reported Term",
        "data_type": "Char",
        "core": "Perm",
        "cdisc_notes": "If AETERM is modified to facilitate coding, then AEMODIFY will contain the modified text.",
        "codelist_code": null,
        "order": 7
      },
      {
        "name": "AEDECOD",
        "label": "Dictionary-Derived Term",
        "data_type": "Char",
        "core": "Req",
        "cdisc_notes": "Dictionary-derived text description of AETERM. Equivalent to the Preferred Term (PT) in MedDRA.",
        "codelist_code": null,
        "order": 8
      },
      {
        "name": "AEBODSYS",
        "label": "Body System or Organ Class",
        "data_type": "Char",
        "core": "Exp",
        "cdisc_notes": "Dictionary-derived. Body system or organ class used in the coding dictionary (e.g., MedDRA SOC).",
        "codelist_code": null,
        "order": 9
      },
      {
        "name": "AESEV",
        "label": "Severity/Intensity",
        "data_type": "Char",
        "core": "Perm",
        "cdisc_notes": "The severity or intensity of the event.",
        "codelist_code": "C66769",
        "order": 10
      },
      {
        "name": "AESER",
        "label": "Serious Event",
        "data_type": "Char",
        "core": "Exp",
        "cdisc_notes": "Is this a serious event?",
        "codelist_code": "C66742",
        "order": 11
      },
      {
        "name": "AEACN",
        "label": "Action Taken with Study Treatment",
        "data_type": "Char",
        "core": "Exp",
        "cdisc_notes": "Describes changes to the study treatment as a result of the event.",
        "codelist_code": "C66767",
        "order": 12
      },
      {
        "name": "AEREL",
        "label": "Causality",
        "data_type": "Char",
        "core": "Exp",
        "cdisc_notes": "Records the investigator's opinion as to the causality of the event to the treatment.",
        "codelist_code": null,
        "order": 13
      },
      {
        "name": "AEOUT",
        "label": "Outcome of Adverse Event",
        "data_type": "Char",
        "core": "Perm",
        "cdisc_notes": "Description of the outcome of the event.",
        "codelist_code": "C66768",
        "order": 14
      },
      {
        "name": "AESCAN",
        "label": "Involves Cancer",
        "data_type": "Char",
        "core": "Perm",
        "cdisc_notes": "Was the serious event associated with cancer?",
        "codelist_code": "C66742",
        "order": 15
      },
      {
        "name": "AESCONG",
        "label": "Congenital Anomaly or Birth Defect",
        "data_type": "Char",
        "core": "Perm",
        "cdisc_notes": "Was the event associated with congenital anomaly or birth defect?",
        "codelist_code": "C66742",
        "order": 16
      },
      {
        "name": "AESDISAB",
        "label": "Persist or Signif Disability/Incapacity",
        "data_type": "Char",
        "core": "Perm",
        "cdisc_notes": "Did the event result in persistent or significant disability/incapacity?",
        "codelist_code": "C66742",
        "order": 17
      },
      {
        "name": "AESDTH",
        "label": "Results in Death",
        "data_type": "Char",
        "core": "Perm",
        "cdisc_notes": "Did the AE result in death?",
        "codelist_code": "C66742",
        "order": 18
      },
      {
        "name": "AESHOSP",
        "label": "Requires or Prolongs Hospitalization",
        "data_type": "Char",
        "core": "Perm",
        "cdisc_notes": "Did the event require or prolong hospitalization?",
        "codelist_code": "C66742",
        "order": 19
      },
      {
        "name": "AESLIFE",
        "label": "Is Life Threatening",
        "data_type": "Char",
        "core": "Perm",
        "cdisc_notes": "Was the event life threatening?",
        "codelist_code": "C66742",
        "order": 20
      },
      {
        "name": "AESMIE",
        "label": "Other Medically Important Serious Event",
        "data_type": "Char",
        "core": "Perm",
        "cdisc_notes": "Is the event of sufficient medical importance to report as serious?",
        "codelist_code": "C66742",
        "order": 21
      },
      {
        "name": "AECONTRT",
        "label": "Concomitant or Additional Trtmnt Given",
        "data_type": "Char",
        "core": "Perm",
        "cdisc_notes": "Was concomitant/additional treatment given for this event?",
        "codelist_code": "C66742",
        "order": 22
      },
      {
        "name": "AESTDTC",
        "label": "Start Date/Time of Adverse Event",
        "data_type": "Char",
        "core": "Exp",
        "cdisc_notes": "Start date/time of the adverse event in ISO 8601 format.",
        "codelist_code": null,
        "order": 23
      },
      {
        "name": "AEENDTC",
        "label": "End Date/Time of Adverse Event",
        "data_type": "Char",
        "core": "Exp",
        "cdisc_notes": "End date/time of the adverse event in ISO 8601 format.",
        "codelist_code": null,
        "order": 24
      },
      {
        "name": "AESTDY",
        "label": "Study Day of Start of Adverse Event",
        "data_type": "Num",
        "core": "Perm",
        "cdisc_notes": "Study day of start of the adverse event relative to the sponsor-defined RFSTDTC.",
        "codelist_code": null,
        "order": 25
      },
      {
        "name": "AEENDY",
        "label": "Study Day of End of Adverse Event",
        "data_type": "Num",
        "core": "Perm",
        "cdisc_notes": "Study day of end of the adverse event relative to the sponsor-defined RFSTDTC.",
        "codelist_code": null,
        "order": 26
      }
    ],
    "key_variables": [
      "STUDYID",
      "USUBJID",
      "AETERM",
      "AESTDTC"
    ]
  },
  "CM": {
    "domain": "CM",
    "description": "Concomitant Medications",
    "domain_class": "Interventions",
    "structure": "One record per recorded medication occurrence or constant-dosing interval per subject",
    "variables": [
      {
        "name": "STUDYID",
        "label": "Study Identifier",
        "data_type": "Char",
        "core": "Req",
        "cdisc_notes": "Unique identifier for a study.",
        "codelist_code": null,
        "order": 1
      },
      {
        "name": "DOMAIN",
        "label": "Domain Abbreviation",
        "data_type": "Char",
        "core": "Req",
        "cdisc_notes": "Two-character abbreviation for the domain.",
        "codelist_code": "C66734",
        "order": 2
      },
      {
        "name": "USUBJID",
        "label": "Unique Subject Identifier",
        "data_type": "Char",
        "core": "Req",
        "cdisc_notes": "Identifier used to uniquely identify a subject across all studies.",
        "codelist_code": null,
        "order": 3
      },
      {
        "name": "CMSEQ",
        "label": "Sequence Number",
        "data_type": "Num",
        "core": "Req",
        "cdisc_notes": "Sequence number given to ensure uniqueness within a dataset for a subject.",
        "codelist_code": null,
        "order": 4
      },
      {
        "name": "CMTRT",
        "label": "Reported Name of Drug, Med, or Therapy",
        "data_type": "Char",
        "core": "Req",
        "cdisc_notes": "Verbatim medication name.",
        "codelist_code": null,
        "order": 5
      },
      {
        "name": "CMMODIFY",
        "label": "Modified Reported Name",
        "data_type": "Char",
        "core": "Perm",
        "cdisc_notes": "If CMTRT is modified for coding, CMMODIFY will contain the modified text.",
        "codelist_code": null,
        "order": 6
      },
      {
        "name": "CMDECOD",
        "label": "Standardized Medication Name",
        "data_type": "Char",
        "core": "Perm",
        "cdisc_notes": "Standardized or dictionary-derived name of CMTRT.",
        "codelist_code": null,
        "order": 7
      },
      {
        "name": "CMCAT",
        "label": "Category for Medication",
        "data_type": "Char",
        "core": "Perm",
        "cdisc_notes": "Used to define a category of medications.",
        "codelist_code": null,
        "order": 8
      },
      {
        "name": "CMDOSE",
        "label": "Dose per Administration",
        "data_type": "Num",
        "core": "Perm",
        "cdisc_notes": "Amount of CMTRT administered.",
        "codelist_code": null,
        "order": 9
      },
      {
        "name": "CMDOSU",
        "label": "Dose Units",
        "data_type": "Char",
        "core": "Perm",
        "cdisc_notes": "Units for CMDOSE.",
        "codelist_code": "C71620",
        "order": 10
      },
      {
        "name": "CMDOSFRQ",
        "label": "Dosing Frequency per Interval",
        "data_type": "Char",
        "core": "Perm",
        "cdisc_notes": "Usually expressed as the number of doses per time period.",
        "codelist_code": "C71113",
        "order": 11
      },
      {
        "name": "CMROUTE",
        "label": "Route of Administration",
        "data_type": "Char",
        "core": "Perm",
        "cdisc_notes": "Route of administration.",
        "codelist_code": "C66729",
        "order": 12
      },
      {
        "name": "CMSTDTC",
        "label": "Start Date/Time of Medication",
        "data_type": "Char",
        "core": "Perm",
        "cdisc_notes": "Start date/time of the medication in ISO 8601 format.",
        "codelist_code": null,
        "order": 13
      },
      {
        "name": "CMENDTC",
        "label": "End Date/Time of Medication",
        "data_type": "Char",
        "core": "Perm",
        "cdisc_notes": "End date/time of the medication in ISO 8601 format.",
        "codelist_code": null,
        "order": 14
      },
      {
        "name": "CMSTDY",
        "label": "Study Day of Start of Medication",
        "data_type": "Num",
        "core": "Perm",
        "cdisc_notes": "Study day of start of medication relative to RFSTDTC.",
        "codelist_code": null,
        "order": 15
      },
      {
        "name": "CMENDY",
        "label": "Study Day of End of Medication",
        "data_type": "Num",
        "core": "Perm",
        "cdisc_notes": "Study day of end of medication relative to RFSTDTC.",
        "codelist_code": null,
        "order": 16
      },
      {
        "name": "CMINDC",
        "label": "Indication",
        "data_type": "Char",
        "core": "Perm",
        "cdisc_notes": "Denotes why a medication was taken or administered.",
        "codelist_code": null,
        "order": 17
      }
    ],
    "key_variables": [
      "STUDYID",
      "USUBJID",
      "CMTRT",
      "CMSTDTC"
    ]
  },
  "EX": {
    "domain": "EX",
    "description": "Exposure",
    "domain_class": "Interventions",
    "structure": "One record per constant-dosing interval per subject",
    "variables": [
      {
        "name": "STUDYID",
        "label": "Study Identifier",
        "data_type": "Char",
        "core": "Req",
        "cdisc_notes": "Unique identifier for a study.",
        "codelist_code": null,
        "order": 1
      },
      {
        "name": "DOMAIN",
        "label": "Domain Abbreviation",
        "data_type": "Char",
        "core": "Req",
        "cdisc_notes": "Two-character abbreviation for the domain.",
        "codelist_code": "C66734",
        "order": 2
      },
      {
        "name": "USUBJID",
        "label": "Unique Subject Identifier",
        "data_type": "Char",
        "core": "Req",
        "cdisc_notes": "Identifier used to uniquely identify a subject across all studies.",
        "codelist_code": null,
        "order": 3
      },
      {
        "name": "EXSEQ",
        "label": "Sequence Number",
        "data_type": "Num",
        "core": "Req",
        "cdisc_notes": "Sequence number given to ensure uniqueness within a dataset for a subject.",
        "codelist_code": null,
        "order": 4
      },
      {
        "name": "EXTRT",
        "label": "Name of Treatment",
        "data_type": "Char",
        "core": "Req",
        "cdisc_notes": "Name of the study treatment.",
        "codelist_code": null,
        "order": 5
      },
      {
        "name": "EXDOSE",
        "label": "Dose",
        "data_type": "Num",
        "core": "Exp",
        "cdisc_notes": "Amount of treatment administered.",
        "codelist_code": null,
        "order": 6
      },
      {
        "name": "EXDOSU",
        "label": "Dose Units",
        "data_type": "Char",
        "core": "Exp",
        "cdisc_notes": "Units for EXDOSE.",
        "codelist_code": "C71620",
        "order": 7
      },
      {
        "name": "EXDOSFRM",
        "label": "Dose Form",
        "data_type": "Char",
        "core": "Exp",
        "cdisc_notes": "Dose form of the treatment.",
        "codelist_code": "C66726",
        "order": 8
      },
      {
        "name": "EXDOSFRQ",
        "label": "Dosing Frequency per Interval",
        "data_type": "Char",
        "core": "Perm",
        "cdisc_notes": "Usually expressed as the number of doses per time period.",
        "codelist_code": "C71113",
        "order": 9
      },
      {
        "name": "EXROUTE",
        "label": "Route of Administration",
        "data_type": "Char",
        "core": "Perm",
        "cdisc_notes": "Route of administration.",
        "codelist_code": "C66729",
        "order": 10
      },
      {
        "name": "EXSTDTC",
        "label": "Start Date/Time of Treatment",
        "data_type": "Char",
        "core": "Exp",
        "cdisc_notes": "Start date/time of the treatment in ISO 8601 format.",
        "codelist_code": null,
        "order": 11
      },
      {
        "name": "EXENDTC",
        "label": "End Date/Time of Treatment",
        "data_type": "Char",
        "core": "Exp",
        "cdisc_notes": "End date/time of the treatment in ISO 8601 format.",
        "codelist_code": null,
        "order": 12
      },
      {
        "name": "EXSTDY",
        "label": "Study Day of Start of Treatment",
        "data_type": "Num",
        "core": "Perm",
        "cdisc_notes": "Study day of start of treatment relative to RFSTDTC.",
        "codelist_code": null,
        "order": 13
      },
      {
        "name": "EXENDY",
        "label": "Study Day of End of Treatment",
        "data_type": "Num",
        "core": "Perm",
        "cdisc_notes": "Study day of end of treatment relative to RFSTDTC.",
        "codelist_code": null,
        "order": 14
      }
    ],
    "key_variables": [
      "STUDYID",
      "USUBJID",
      "EXTRT",
      "EXSTDTC"
    ]
  },
  "LB": {
    "domain": "LB",
    "description": "Laboratory Test Results",
    "domain_class": "Findings",
    "structure": "One record per lab test per visit per subject",
    "variables": [
      {
        "name": "STUDYID",
        "label": "Study Identifier",
        "data_type": "Char",
        "core": "Req",
        "cdisc_notes": "Unique identifier for a study.",
        "codelist_code": null,
        "order": 1
      },
      {
        "name": "DOMAIN",
        "label": "Domain Abbreviation",
        "data_type": "Char",
        "core": "Req",
        "cdisc_notes": "Two-character abbreviation for the domain.",
        "codelist_code": "C66734",
        "order": 2
      },
      {
        "name": "USUBJID",
        "label": "Unique Subject Identifier",
        "data_type": "Char",
        "core": "Req",
        "cdisc_notes": "Identifier used to uniquely identify a subject across all studies.",
        "codelist_code": null,
        "order": 3
      },
      {
        "name": "LBSEQ",
        "label": "Sequence Number",
        "data_type": "Num",
        "core": "Req",
        "cdisc_notes": "Sequence number given to ensure uniqueness within a dataset for a subject.",
        "codelist_code": null,
        "order": 4
      },
      {
        "name": "LBTESTCD",
        "label": "Lab Test or Examination Short Name",
        "data_type": "Char",
        "core": "Req",
        "cdisc_notes": "Short name of the measurement, test, or examination. Max 8 characters.",
        "codelist_code": "C65047",
        "order": 5
      },
      {
        "name": "LBTEST",
        "label": "Lab Test or Examination Name",
        "data_type": "Char",
        "core": "Req",
        "cdisc_notes": "Verbatim name of the test or examination used to obtain the measurement or finding.",
        "codelist_code": "C67154",
        "order": 6
      },
      {
        "name": "LBCAT",
        "label": "Category for Lab Test",
        "data_type": "Char",
        "core": "Exp",
        "cdisc_notes": "Used to define a category of tests (e.g., HEMATOLOGY, CHEMISTRY).",
        "codelist_code": null,
        "order": 7
      },
      {
        "name": "LBORRES",
        "label": "Result or Finding in Original Units",
        "data_type": "Char",
        "core": "Exp",
        "cdisc_notes": "Result of the measurement or finding as originally received or collected.",
        "codelist_code": null,
        "order": 8
      },
      {
        "name": "LBORRESU",
        "label": "Original Units",
        "data_type": "Char",
        "core": "Exp",
        "cdisc_notes": "Original units in which the data were collected.",
        "codelist_code": "C71620",
        "order": 9
      },
      {
        "name": "LBORNRLO",
        "label": "Reference Range Lower Limit-Orig Unit",
        "data_type": "Char",
        "core": "Exp",
        "cdisc_notes": "Lower end of reference range used at the performing laboratory.",
        "codelist_code": null,
        "order": 10
      },
      {
        "name": "LBORNRHI",
        "label": "Reference Range Upper Limit-Orig Unit",
        "data_type": "Char",
        "core": "Exp",
        "cdisc_notes": "Upper end of reference range used at the performing laboratory.",
        "codelist_code": null,
        "order": 11
      },
      {
        "name": "LBSTRESC",
        "label": "Character Result/Finding in Std Format",
        "data_type": "Char",
        "core": "Exp",
        "cdisc_notes": "Contains the result value for all findings, copied or derived from LBORRES in a standard format.",
        "codelist_code": null,
        "order": 12
      },
      {
        "name": "LBSTRESN",
        "label": "Numeric Result/Finding in Standard Units",
        "data_type": "Num",
        "core": "Exp",
        "cdisc_notes": "Used for continuous or numeric results in standard format; copied in standard units from LBORRES.",
        "codelist_code": null,
        "order": 13
      },
      {
        "name": "LBSTRESU",
        "label": "Standard Units",
        "data_type": "Char",
        "core": "Exp",
        "cdisc_notes": "Standardized units used for LBSTRESC and LBSTRESN.",
        "codelist_code": "C71620",
        "order": 14
      },
      {
        "name": "LBSTNRLO",
        "label": "Reference Range Lower Limit-Std Units",
        "data_type": "Num",
        "core": "Exp",
        "cdisc_notes": "Lower end of reference range for standardized values.",
        "codelist_code": null,
        "order": 15
      },
      {
        "name": "LBSTNRHI",
        "label": "Reference Range Upper Limit-Std Units",
        "data_type": "Num",
        "core": "Exp",
        "cdisc_notes": "Upper end of reference range for standardized values.",
        "codelist_code": null,
        "order": 16
      },
      {
        "name": "LBNRIND",
        "label": "Reference Range Indicator",
        "data_type": "Char",
        "core": "Exp",
        "cdisc_notes": "Indicates where value falls with respect to reference range (e.g., NORMAL, LOW, HIGH).",
        "codelist_code": "C78736",
        "order": 17
      },
      {
        "name": "LBSPEC",
        "label": "Specimen Type",
        "data_type": "Char",
        "core": "Perm",
        "cdisc_notes": "Defines the type of specimen used for a measurement.",
        "codelist_code": "C78734",
        "order": 18
      },
      {
        "name": "VISITNUM",
        "label": "Visit Number",
        "data_type": "Num",
        "core": "Exp",
        "cdisc_notes": "Clinical encounter number.",
        "codelist_code": null,
        "order": 19
      },
      {
        "name": "VISIT",
        "label": "Visit Name",
        "data_type": "Char",
        "core": "Perm",
        "cdisc_notes": "Protocol-defined description of clinical encounter.",
        "codelist_code": null,
        "order": 20
      },
      {
        "name": "LBDTC",
        "label": "Date/Time of Specimen Collection",
        "data_type": "Char",
        "core": "Exp",
        "cdisc_notes": "Date/time of specimen collection in ISO 8601 format.",
        "codelist_code": null,
        "order": 21
      },
      {
        "name": "LBDY",
        "label": "Study Day of Specimen Collection",
        "data_type": "Num",
        "core": "Perm",
        "cdisc_notes": "Study day of specimen collection relative to RFSTDTC.",
        "codelist_code": null,
        "order": 22
      }
    ],
    "key_variables": [
      "STUDYID",
      "USUBJID",
      "LBTESTCD",
      "LBSPEC",
      "VISITNUM",
      "LBDTC"
    ]
  },
  "VS": {
    "domain": "VS",
    "description": "Vital Signs",
    "domain_class": "Findings",
    "structure": "One record per vital sign measurement per visit per subject",
    "variables": [
      {
        "name": "STUDYID",
        "label": "Study Identifier",
        "data_type": "Char",
        "core": "Req",
        "cdisc_notes": "Unique identifier for a study.",
        "codelist_code": null,
        "order": 1
      },
      {
        "name": "DOMAIN",
        "label": "Domain Abbreviation",
        "data_type": "Char",
        "core": "Req",
        "cdisc_notes": "Two-character abbreviation for the domain.",
        "codelist_code": "C66734",
        "order": 2
      },
      {
        "name": "USUBJID",
        "label": "Unique Subject Identifier",
        "data_type": "Char",
        "core": "Req",
        "cdisc_notes": "Identifier used to uniquely identify a subject across all studies.",
        "codelist_code": null,
        "order": 3
      },
      {
        "name": "VSSEQ",
        "label": "Sequence Number",
        "data_type": "Num",
        "core": "Req",
        "cdisc_notes": "Sequence number given to ensure uniqueness within a dataset for a subject.",
        "codelist_code": null,
        "order": 4
      },
      {
        "name": "VSTESTCD",
        "label": "Vital Signs Test Short Name",
        "data_type": "Char",
        "core": "Req",
        "cdisc_notes": "Short name of the test. Examples: SYSBP, DIABP, PULSE, WEIGHT, HEIGHT, TEMP, RESP.",
        "codelist_code": "C66741",
        "order": 5
      },
      {
        "name": "VSTEST",
        "label": "Vital Signs Test Name",
        "data_type": "Char",
        "core": "Req",
        "cdisc_notes": "Verbatim name of the test or examination.",
        "codelist_code": "C67153",
        "order": 6
      },
      {
        "name": "VSPOS",
        "label": "Vital Signs Position of Subject",
        "data_type": "Char",
        "core": "Perm",
        "cdisc_notes": "Position of the subject during the measurement (e.g., STANDING, SITTING, SUPINE).",
        "codelist_code": "C71148",
        "order": 7
      },
      {
        "name": "VSORRES",
        "label": "Result or Finding in Original Units",
        "data_type": "Char",
        "core": "Exp",
        "cdisc_notes": "Result of the vital signs measurement as originally received or collected.",
        "codelist_code": null,
        "order": 8
      },
      {
        "name": "VSORRESU",
        "label": "Original Units",
        "data_type": "Char",
        "core": "Exp",
        "cdisc_notes": "Original units in which the data were collected.",
        "codelist_code": "C71620",
        "order": 9
      },
      {
        "name": "VSSTRESC",
        "label": "Character Result/Finding in Std Format",
        "data_type": "Char",
        "core": "Exp",
        "cdisc_notes": "Contains the result value for all findings, copied or derived from VSORRES in a standard format.",
        "codelist_code": null,
        "order": 10
      },
      {
        "name": "VSSTRESN",
        "label": "Numeric Result/Finding in Standard Units",
        "data_type": "Num",
        "core": "Exp",
        "cdisc_notes": "Used for continuous or numeric results in standard format.",
        "codelist_code": null,
        "order": 11
      },
      {
        "name": "VSSTRESU",
        "label": "Standard Units",
        "data_type": "Char",
        "core": "Exp",
        "cdisc_notes": "Standardized units used for VSSTRESC and VSSTRESN.",
        "codelist_code": "C71620",
        "order": 12
      },
      {
        "name": "VISITNUM",
        "label": "Visit Number",
        "data_type": "Num",
        "core": "Exp",
        "cdisc_notes": "Clinical encounter number.",
        "codelist_code": null,
        "order": 13
      },
      {
        "name": "VISIT",
        "label": "Visit Name",
        "data_type": "Char",
        "core": "Perm",
        "cdisc_notes": "Protocol-defined description of clinical encounter.",
        "codelist_code": null,
        "order": 14
      },
      {
        "name": "VSDTC",
        "label": "Date/Time of Vital Signs",
        "data_type": "Char",
        "core": "Exp",
        "cdisc_notes": "Date/time of the vital signs measurement in ISO 8601 format.",
        "codelist_code": null,
        "order": 15
      },
      {
        "name": "VSDY",
        "label": "Study Day of Vital Signs",
        "data_type": "Num",
        "core": "Perm",
        "cdisc_notes": "Study day of vital signs measurement relative to RFSTDTC.",
        "codelist_code": null,
        "order": 16
      }
    ],
    "key_variables": [
      "STUDYID",
      "USUBJID",
      "VSTESTCD",
      "VISITNUM",
      "VSDTC"
    ]
  },
  "EG": {
    "domain": "EG",
    "description": "ECG Test Results",
    "domain_class": "Findings",
    "structure": "One record per ECG test per visit per subject",
    "variables": [
      {
        "name": "STUDYID",
        "label": "Study Identifier",
        "data_type": "Char",
        "core": "Req",
        "cdisc_notes": "Unique identifier for a study.",
        "codelist_code": null,
        "order": 1
      },
      {
        "name": "DOMAIN",
        "label": "Domain Abbreviation",
        "data_type": "Char",
        "core": "Req",
        "cdisc_notes": "Two-character abbreviation for the domain.",
        "codelist_code": "C66734",
        "order": 2
      },
      {
        "name": "USUBJID",
        "label": "Unique Subject Identifier",
        "data_type": "Char",
        "core": "Req",
        "cdisc_notes": "Identifier used to uniquely identify a subject across all studies.",
        "codelist_code": null,
        "order": 3
      },
      {
        "name": "EGSEQ",
        "label": "Sequence Number",
        "data_type": "Num",
        "core": "Req",
        "cdisc_notes": "Sequence number given to ensure uniqueness within a dataset for a subject.",
        "codelist_code": null,
        "order": 4
      },
      {
        "name": "EGTESTCD",
        "label": "ECG Test Short Name",
        "data_type": "Char",
        "core": "Req",
        "cdisc_notes": "Short name of the ECG test. Examples: HRMEAN, PRMEAN, QRSDUR, QTMEAN, RRMEAN.",
        "codelist_code": "C71153",
        "order": 5
      },
      {
        "name": "EGTEST",
        "label": "ECG Test Name",
        "data_type": "Char",
        "core": "Req",
        "cdisc_notes": "Verbatim name of the ECG test or examination.",
        "codelist_code": "C71152",
        "order": 6
      },
      {
        "name": "EGORRES",
        "label": "Result or Finding in Original Units",
        "data_type": "Char",
        "core": "Exp",
        "cdisc_notes": "Result of the ECG measurement as originally received or collected.",
        "codelist_code": null,
        "order": 7
      },
      {
        "name": "EGORRESU",
        "label": "Original Units",
        "data_type": "Char",
        "core": "Exp",
        "cdisc_notes": "Original units in which the data were collected.",
        "codelist_code": "C71620",
        "order": 8
      },
      {
        "name": "EGSTRESC",
        "label": "Character Result/Finding in Std Format",
        "data_type": "Char",
        "core": "Exp",
        "cdisc_notes": "Contains the result value for all findings in a standard format.",
        "codelist_code": null,
        "order": 9
      },
      {
        "name": "EGSTRESN",
        "label": "Numeric Result/Finding in Standard Units",
        "data_type": "Num",
        "core": "Exp",
        "cdisc_notes": "Used for continuous or numeric results in standard format.",
        "codelist_code": null,
        "order": 10
      },
      {
        "name": "EGSTRESU",
        "label": "Standard Units",
        "data_type": "Char",
        "core": "Exp",
        "cdisc_notes": "Standardized units used for EGSTRESC and EGSTRESN.",
        "codelist_code": "C71620",
        "order": 11
      },
      {
        "name": "VISITNUM",
        "label": "Visit Number",
        "data_type": "Num",
        "core": "Exp",
        "cdisc_notes": "Clinical encounter number.",
        "codelist_code": null,
        "order": 12
      },
      {
        "name": "VISIT",
        "label": "Visit Name",
        "data_type": "Char",
        "core": "Perm",
        "cdisc_notes": "Protocol-defined description of clinical encounter.",
        "codelist_code": null,
        "order": 13
      },
      {
        "name": "EGDTC",
        "label": "Date/Time of ECG",
        "data_type": "Char",
        "core": "Exp",
        "cdisc_notes": "Date/time of the ECG measurement in ISO 8601 format.",
        "codelist_code": null,
        "order": 14
      },
      {
        "name": "EGDY",
        "label": "Study Day of ECG",
        "data_type": "Num",
        "core": "Perm",
        "cdisc_notes": "Study day of ECG measurement relative to RFSTDTC.",
        "codelist_code": null,
        "order": 15
      }
    ],
    "key_variables": [
      "STUDYID",
      "USUBJID",
      "EGTESTCD",
      "VISITNUM",
      "EGDTC"
    ]
  },
  "MH": {
    "domain": "MH",
    "description": "Medical History",
    "domain_class": "Events",
    "structure": "One record per medical history event per subject",
    "variables": [
      {
        "name": "STUDYID",
        "label": "Study Identifier",
        "data_type": "Char",
        "core": "Req",
        "cdisc_notes": "Unique identifier for a study.",
        "codelist_code": null,
        "order": 1
      },
      {
        "name": "DOMAIN",
        "label": "Domain Abbreviation",
        "data_type": "Char",
        "core": "Req",
        "cdisc_notes": "Two-character abbreviation for the domain.",
        "codelist_code": "C66734",
        "order": 2
      },
      {
        "name": "USUBJID",
        "label": "Unique Subject Identifier",
        "data_type": "Char",
        "core": "Req",
        "cdisc_notes": "Identifier used to uniquely identify a subject across all studies.",
        "codelist_code": null,
        "order": 3
      },
      {
        "name": "MHSEQ",
        "label": "Sequence Number",
        "data_type": "Num",
        "core": "Req",
        "cdisc_notes": "Sequence number given to ensure uniqueness within a dataset for a subject.",
        "codelist_code": null,
        "order": 4
      },
      {
        "name": "MHTERM",
        "label": "Reported Term for the Medical History",
        "data_type": "Char",
        "core": "Req",
        "cdisc_notes": "Verbatim name of the medical history event.",
        "codelist_code": null,
        "order": 5
      },
      {
        "name": "MHMODIFY",
        "label": "Modified Reported Term",
        "data_type": "Char",
        "core": "Perm",
        "cdisc_notes": "If MHTERM is modified to facilitate coding, then MHMODIFY will contain the modified text.",
        "codelist_code": null,
        "order": 6
      },
      {
        "name": "MHDECOD",
        "label": "Dictionary-Derived Term",
        "data_type": "Char",
        "core": "Exp",
        "cdisc_notes": "Dictionary-derived text description of MHTERM.",
        "codelist_code": null,
        "order": 7
      },
      {
        "name": "MHBODSYS",
        "label": "Body System or Organ Class",
        "data_type": "Char",
        "core": "Exp",
        "cdisc_notes": "Dictionary-derived. Body system or organ class.",
        "codelist_code": null,
        "order": 8
      },
      {
        "name": "MHCAT",
        "label": "Category for Medical History",
        "data_type": "Char",
        "core": "Perm",
        "cdisc_notes": "Used to define a category of medical history events.",
        "codelist_code": null,
        "order": 9
      },
      {
        "name": "MHPRESP",
        "label": "Medical History Event Pre-Specified",
        "data_type": "Char",
        "core": "Perm",
        "cdisc_notes": "Used when a specific medical history event is pre-specified on the CRF. Value is Y.",
        "codelist_code": "C66742",
        "order": 10
      },
      {
        "name": "MHOCCUR",
        "label": "Medical History Occurrence",
        "data_type": "Char",
        "core": "Perm",
        "cdisc_notes": "Used to indicate whether a pre-specified event occurred. Values are Y or N.",
        "codelist_code": "C66742",
        "order": 11
      },
      {
        "name": "MHSTDTC",
        "label": "Start Date/Time of Medical History",
        "data_type": "Char",
        "core": "Exp",
        "cdisc_notes": "Start date/time of the medical history event in ISO 8601 format.",
        "codelist_code": null,
        "order": 12
      },
      {
        "name": "MHENDTC",
        "label": "End Date/Time of Medical History",
        "data_type": "Char",
        "core": "Exp",
        "cdisc_notes": "End date/time of the medical history event in ISO 8601 format.",
        "codelist_code": null,
        "order": 13
      },
      {
        "name": "MHENRF",
        "label": "End Relative to Reference Period",
        "data_type": "Char",
        "core": "Perm",
        "cdisc_notes": "Describes the end of the event relative to the reference period. Expected values: BEFORE, DURING, AFTER.",
        "codelist_code": "C66728",
        "order": 14
      }
    ],
    "key_variables": [
      "STUDYID",
      "USUBJID",
      "MHTERM"
    ]
  },
  "DS": {
    "domain": "DS",
    "description": "Disposition",
    "domain_class": "Events",
    "structure": "One record per disposition status or protocol milestone per subject",
    "variables": [
      {
        "name": "STUDYID",
        "label": "Study Identifier",
        "data_type": "Char",
        "core": "Req",
        "cdisc_notes": "Unique identifier for a study.",
        "codelist_code": null,
        "order": 1
      },
      {
        "name": "DOMAIN",
        "label": "Domain Abbreviation",
        "data_type": "Char",
        "core": "Req",
        "cdisc_notes": "Two-character abbreviation for the domain.",
        "codelist_code": "C66734",
        "order": 2
      },
      {
        "name": "USUBJID",
        "label": "Unique Subject Identifier",
        "data_type": "Char",
        "core": "Req",
        "cdisc_notes": "Identifier used to uniquely identify a subject across all studies.",
        "codelist_code": null,
        "order": 3
      },
      {
        "name": "DSSEQ",
        "label": "Sequence Number",
        "data_type": "Num",
        "core": "Req",
        "cdisc_notes": "Sequence number given to ensure uniqueness within a dataset for a subject.",
        "codelist_code": null,
        "order": 4
      },
      {
        "name": "DSTERM",
        "label": "Reported Term for the Disposition Event",
        "data_type": "Char",
        "core": "Req",
        "cdisc_notes": "Verbatim name of the disposition event.",
        "codelist_code": null,
        "order": 5
      },
      {
        "name": "DSDECOD",
        "label": "Standardized Disposition Term",
        "data_type": "Char",
        "core": "Req",
        "cdisc_notes": "Standardized or dictionary-derived text description of DSTERM.",
        "codelist_code": "C66727",
        "order": 6
      },
      {
        "name": "DSCAT",
        "label": "Category for Disposition Event",
        "data_type": "Char",
        "core": "Exp",
        "cdisc_notes": "Used to define a category of disposition events (e.g., DISPOSITION EVENT, PROTOCOL MILESTONE).",
        "codelist_code": null,
        "order": 7
      },
      {
        "name": "DSSCAT",
        "label": "Subcategory for Disposition Event",
        "data_type": "Char",
        "core": "Perm",
        "cdisc_notes": "Used to define a sub-category of disposition events.",
        "codelist_code": null,
        "order": 8
      },
      {
        "name": "DSSTDTC",
        "label": "Start Date/Time of Disposition Event",
        "data_type": "Char",
        "core": "Exp",
        "cdisc_notes": "Start date/time of the disposition event in ISO 8601 format.",
        "codelist_code": null,
        "order": 9
      },
      {
        "name": "DSDY",
        "label": "Study Day of Start of Disposition Event",
        "data_type": "Num",
        "core": "Perm",
        "cdisc_notes": "Study day of start of disposition event relative to RFSTDTC.",
        "codelist_code": null,
        "order": 10
      }
    ],
    "key_variables": [
      "STUDYID",
      "USUBJID",
      "DSDECOD",
      "DSSTDTC"
    ]
  },
  "IE": {
    "domain": "IE",
    "description": "Inclusion/Exclusion Criteria Not Met",
    "domain_class": "Findings",
    "structure": "One record per inclusion/exclusion criterion not met per subject",
    "variables": [
      {
        "name": "STUDYID",
        "label": "Study Identifier",
        "data_type": "Char",
        "core": "Req",
        "cdisc_notes": "Unique identifier for a study.",
        "codelist_code": null,
        "order": 1
      },
      {
        "name": "DOMAIN",
        "label": "Domain Abbreviation",
        "data_type": "Char",
        "core": "Req",
        "cdisc_notes": "Two-character abbreviation for the domain.",
        "codelist_code": "C66734",
        "order": 2
      },
      {
        "name": "USUBJID",
        "label": "Unique Subject Identifier",
        "data_type": "Char",
        "core": "Req",
        "cdisc_notes": "Identifier used to uniquely identify a subject across all studies.",
        "codelist_code": null,
        "order": 3
      },
      {
        "name": "IESEQ",
        "label": "Sequence Number",
        "data_type": "Num",
        "core": "Req",
        "cdisc_notes": "Sequence number given to ensure uniqueness within a dataset for a subject.",
        "codelist_code": null,
        "order": 4
      },
      {
        "name": "IETESTCD",
        "label": "Incl/Excl Criterion Short Name",
        "data_type": "Char",
        "core": "Req",
        "cdisc_notes": "Short name for the criterion (e.g., INCL01, EXCL03). Max 8 characters.",
        "codelist_code": null,
        "order": 5
      },
      {
        "name": "IETEST",
        "label": "Incl/Excl Criterion",
        "data_type": "Char",
        "core": "Req",
        "cdisc_notes": "Full text of the inclusion or exclusion criterion.",
        "codelist_code": null,
        "order": 6
      },
      {
        "name": "IECAT",
        "label": "Incl/Excl Category",
        "data_type": "Char",
        "core": "Req",
        "cdisc_notes": "Category: INCLUSION or EXCLUSION.",
        "codelist_code": null,
        "order": 7
      },
      {
        "name": "IESCAT",
        "label": "Incl/Excl Subcategory",
        "data_type": "Char",
        "core": "Perm",
        "cdisc_notes": "Subcategory for the criterion.",
        "codelist_code": null,
        "order": 8
      },
      {
        "name": "IEORRES",
        "label": "Incl/Excl Criterion Original Result",
        "data_type": "Char",
        "core": "Exp",
        "cdisc_notes": "Original result for the criterion (e.g., Y or N).",
        "codelist_code": null,
        "order": 9
      },
      {
        "name": "IESTRESC",
        "label": "Incl/Excl Criterion Result in Std Format",
        "data_type": "Char",
        "core": "Exp",
        "cdisc_notes": "Standardized result for the criterion.",
        "codelist_code": null,
        "order": 10
      },
      {
        "name": "IEDTC",
        "label": "Date/Time of Collection",
        "data_type": "Char",
        "core": "Exp",
        "cdisc_notes": "Date/time of the assessment in ISO 8601 format.",
        "codelist_code": null,
        "order": 11
      },
      {
        "name": "IEDY",
        "label": "Study Day of Collection",
        "data_type": "Num",
        "core": "Perm",
        "cdisc_notes": "Study day of assessment relative to RFSTDTC.",
        "codelist_code": null,
        "order": 12
      }
    ],
    "key_variables": null
  },
  "CE": {
    "domain": "CE",
    "description": "Clinical Events",
    "domain_class": "Events",
    "structure": "One record per event per subject",
    "variables": [
      {
        "name": "STUDYID",
        "label": "Study Identifier",
        "data_type": "Char",
        "core": "Req",
        "cdisc_notes": "Unique identifier for a study.",
        "codelist_code": null,
        "order": 1
      },
      {
        "name": "DOMAIN",
        "label": "Domain Abbreviation",
        "data_type": "Char",
        "core": "Req",
        "cdisc_notes": "Two-character abbreviation for the domain.",
        "codelist_code": "C66734",
        "order": 2
      },
      {
        "name": "USUBJID",
        "label": "Unique Subject Identifier",
        "data_type": "Char",
        "core": "Req",
        "cdisc_notes": "Identifier used to uniquely identify a subject across all studies.",
        "codelist_code": null,
        "order": 3
      },
      {
        "name": "CESEQ",
        "label": "Sequence Number",
        "data_type": "Num",
        "core": "Req",
        "cdisc_notes": "Sequence number to ensure uniqueness within domain for a subject.",
        "codelist_code": null,
        "order": 4
      },
      {
        "name": "CEGRPID",
        "label": "Group ID",
        "data_type": "Char",
        "core": "Perm",
        "cdisc_notes": "Used to link related records.",
        "codelist_code": null,
        "order": 5
      },
      {
        "name": "CETERM",
        "label": "Reported Term for the Clinical Event",
        "data_type": "Char",
        "core": "Req",
        "cdisc_notes": "Verbatim or prespecified name of the event.",
        "codelist_code": null,
        "order": 6
      },
      {
        "name": "CEDECOD",
        "label": "Dictionary-Derived Term",
        "data_type": "Char",
        "core": "Exp",
        "cdisc_notes": "Dictionary-derived text description of CETERM.",
        "codelist_code": null,
        "order": 7
      },
      {
        "name": "CECAT",
        "label": "Category for Clinical Event",
        "data_type": "Char",
        "core": "Exp",
        "cdisc_notes": "Used to categorize clinical events.",
        "codelist_code": null,
        "order": 8
      },
      {
        "name": "CESCAT",
        "label": "Subcategory for Clinical Event",
        "data_type": "Char",
        "core": "Perm",
        "cdisc_notes": "Further categorization of clinical events.",
        "codelist_code": null,
        "order": 9
      },
      {
        "name": "CEPRESP",
        "label": "Clinical Event Pre-Specified",
        "data_type": "Char",
        "core": "Perm",
        "cdisc_notes": "Whether the clinical event was pre-specified.",
        "codelist_code": "C66742",
        "order": 10
      },
      {
        "name": "CEOCCUR",
        "label": "Clinical Event Occurrence",
        "data_type": "Char",
        "core": "Perm",
        "cdisc_notes": "Whether the pre-specified event occurred.",
        "codelist_code": "C66742",
        "order": 11
      },
      {
        "name": "CESTDTC",
        "label": "Start Date/Time of Clinical Event",
        "data_type": "Char",
        "core": "Exp",
        "cdisc_notes": "Start date/time in ISO 8601 format.",
        "codelist_code": null,
        "order": 12
      },
      {
        "name": "CEENDTC",
        "label": "End Date/Time of Clinical Event",
        "data_type": "Char",
        "core": "Exp",
        "cdisc_notes": "End date/time in ISO 8601 format.",
        "codelist_code": null,
        "order": 13
      },
      {
        "name": "CEDY",
        "label": "Study Day of Start of Clinical Event",
        "data_type": "Num",
        "core": "Perm",
        "cdisc_notes": "Study day of event start relative to RFSTDTC.",
        "codelist_code": null,
        "order": 14
      }
    ],
    "key_variables": null
  },
  "DV": {
    "domain": "DV",
    "description": "Protocol Deviations",
    "domain_class": "Events",
    "structure": "One record per deviation per subject",
    "variables": [
      {
        "name": "STUDYID",
        "label": "Study Identifier",
        "data_type": "Char",
        "core": "Req",
        "cdisc_notes": "Unique identifier for a study.",
        "codelist_code": null,
        "order": 1
      },
      {
        "name": "DOMAIN",
        "label": "Domain Abbreviation",
        "data_type": "Char",
        "core": "Req",
        "cdisc_notes": "Two-character abbreviation for the domain.",
        "codelist_code": "C66734",
        "order": 2
      },
      {
        "name": "USUBJID",
        "label": "Unique Subject Identifier",
        "data_type": "Char",
        "core": "Req",
        "cdisc_notes": "Identifier used to uniquely identify a subject across all studies.",
        "codelist_code": null,
        "order": 3
      },
      {
        "name": "DVSEQ",
        "label": "Sequence Number",
        "data_type": "Num",
        "core": "Req",
        "cdisc_notes": "Sequence number to ensure uniqueness within domain for a subject.",
        "codelist_code": null,
        "order": 4
      },
      {
        "name": "DVTERM",
        "label": "Protocol Deviation Term",
        "data_type": "Char",
        "core": "Req",
        "cdisc_notes": "Verbatim or prespecified name of the protocol deviation.",
        "codelist_code": null,
        "order": 5
      },
      {
        "name": "DVDECOD",
        "label": "Dictionary-Derived Term",
        "data_type": "Char",
        "core": "Exp",
        "cdisc_notes": "Controlled term for the deviation.",
        "codelist_code": null,
        "order": 6
      },
      {
        "name": "DVCAT",
        "label": "Category for Protocol Deviation",
        "data_type": "Char",
        "core": "Exp",
        "cdisc_notes": "Used to categorize protocol deviations.",
        "codelist_code": null,
        "order": 7
      },
      {
        "name": "DVSCAT",
        "label": "Subcategory for Protocol Deviation",
        "data_type": "Char",
        "core": "Perm",
        "cdisc_notes": "Further categorization of protocol deviations.",
        "codelist_code": null,
        "order": 8
      },
      {
        "name": "EPOCH",
        "label": "Epoch",
        "data_type": "Char",
        "core": "Perm",
        "cdisc_notes": "The epoch of the protocol deviation.",
        "codelist_code": "C99079",
        "order": 9
      },
      {
        "name": "DVSTDTC",
        "label": "Start Date/Time of Deviation",
        "data_type": "Char",
        "core": "Exp",
        "cdisc_notes": "Start date/time of deviation in ISO 8601 format.",
        "codelist_code": null,
        "order": 10
      },
      {
        "name": "DVENDTC",
        "label": "End Date/Time of Deviation",
        "data_type": "Char",
        "core": "Perm",
        "cdisc_notes": "End date/time of deviation in ISO 8601 format.",
        "codelist_code": null,
        "order": 11
      }
    ],
    "key_variables": null
  },
  "PE": {
    "domain": "PE",
    "description": "Physical Examination",
    "domain_class": "Findings",
    "structure": "One record per finding per visit per subject",
    "variables": [
      {
        "name": "STUDYID",
        "label": "Study Identifier",
        "data_type": "Char",
        "core": "Req",
        "cdisc_notes": "Unique identifier for a study.",
        "codelist_code": null,
        "order": 1
      },
      {
        "name": "DOMAIN",
        "label": "Domain Abbreviation",
        "data_type": "Char",
        "core": "Req",
        "cdisc_notes": "Two-character abbreviation for the domain.",
        "codelist_code": "C66734",
        "order": 2
      },
      {
        "name": "USUBJID",
        "label": "Unique Subject Identifier",
        "data_type": "Char",
        "core": "Req",
        "cdisc_notes": "Identifier used to uniquely identify a subject across all studies.",
        "codelist_code": null,
        "order": 3
      },
      {
        "name": "PESEQ",
        "label": "Sequence Number",
        "data_type": "Num",
        "core": "Req",
        "cdisc_notes": "Sequence number to ensure uniqueness within domain for a subject.",
        "codelist_code": null,
        "order": 4
      },
      {
        "name": "PETESTCD",
        "label": "PE Test or Examination Short Name",
        "data_type": "Char",
        "core": "Req",
        "cdisc_notes": "Short name of the measurement, test, or examination.",
        "codelist_code": null,
        "order": 5
      },
      {
        "name": "PETEST",
        "label": "PE Test or Examination Name",
        "data_type": "Char",
        "core": "Req",
        "cdisc_notes": "Name of the measurement, test, or examination.",
        "codelist_code": null,
        "order": 6
      },
      {
        "name": "PECAT",
        "label": "Category for PE",
        "data_type": "Char",
        "core": "Exp",
        "cdisc_notes": "Used to categorize PE observations.",
        "codelist_code": null,
        "order": 7
      },
      {
        "name": "PEORRES",
        "label": "Result or Finding in Original Units",
        "data_type": "Char",
        "core": "Exp",
        "cdisc_notes": "Result of the PE measurement in original units.",
        "codelist_code": null,
        "order": 8
      },
      {
        "name": "PESTRESC",
        "label": "Character Result/Finding in Std Format",
        "data_type": "Char",
        "core": "Exp",
        "cdisc_notes": "Contains the result in a standard format.",
        "codelist_code": null,
        "order": 9
      },
      {
        "name": "PELOC",
        "label": "Location of PE Assessment",
        "data_type": "Char",
        "core": "Perm",
        "cdisc_notes": "Anatomical location relevant to the PE.",
        "codelist_code": "C74456",
        "order": 10
      },
      {
        "name": "PEMETHOD",
        "label": "Method of PE",
        "data_type": "Char",
        "core": "Perm",
        "cdisc_notes": "Method of the PE measurement.",
        "codelist_code": null,
        "order": 11
      },
      {
        "name": "PEDTC",
        "label": "Date/Time of PE",
        "data_type": "Char",
        "core": "Exp",
        "cdisc_notes": "Date/time of PE collection in ISO 8601 format.",
        "codelist_code": null,
        "order": 12
      },
      {
        "name": "PEDY",
        "label": "Study Day of PE",
        "data_type": "Num",
        "core": "Perm",
        "cdisc_notes": "Study day of PE relative to RFSTDTC.",
        "codelist_code": null,
        "order": 13
      }
    ],
    "key_variables": null
  },
  "QS": {
    "domain": "QS",
    "description": "Questionnaires",
    "domain_class": "Findings",
    "structure": "One record per question per visit per subject",
    "variables": [
      {
        "name": "STUDYID",
        "label": "Study Identifier",
        "data_type": "Char",
        "core": "Req",
        "cdisc_notes": "Unique identifier for a study.",
        "codelist_code": null,
        "order": 1
      },
      {
        "name": "DOMAIN",
        "label": "Domain Abbreviation",
        "data_type": "Char",
        "core": "Req",
        "cdisc_notes": "Two-character abbreviation for the domain.",
        "codelist_code": "C66734",
        "order": 2
      },
      {
        "name": "USUBJID",
        "label": "Unique Subject Identifier",
        "data_type": "Char",
        "core": "Req",
        "cdisc_notes": "Identifier used to uniquely identify a subject across all studies.",
        "codelist_code": null,
        "order": 3
      },
      {
        "name": "QSSEQ",
        "label": "Sequence Number",
        "data_type": "Num",
        "core": "Req",
        "cdisc_notes": "Sequence number to ensure uniqueness within domain for a subject.",
        "codelist_code": null,
        "order": 4
      },
      {
        "name": "QSTESTCD",
        "label": "Questionnaire Test Short Name",
        "data_type": "Char",
        "core": "Req",
        "cdisc_notes": "Short name of the questionnaire item.",
        "codelist_code": null,
        "order": 5
      },
      {
        "name": "QSTEST",
        "label": "Questionnaire Test Name",
        "data_type": "Char",
        "core": "Req",
        "cdisc_notes": "Full name of the questionnaire item.",
        "codelist_code": null,
        "order": 6
      },
      {
        "name": "QSCAT",
        "label": "Category of Question",
        "data_type": "Char",
        "core": "Exp",
        "cdisc_notes": "Used to categorize questionnaire items, often the questionnaire name.",
        "codelist_code": null,
        "order": 7
      },
      {
        "name": "QSSCAT",
        "label": "Subcategory of Question",
        "data_type": "Char",
        "core": "Perm",
        "cdisc_notes": "Further categorization of questionnaire items.",
        "codelist_code": null,
        "order": 8
      },
      {
        "name": "QSORRES",
        "label": "Result or Finding in Original Units",
        "data_type": "Char",
        "core": "Exp",
        "cdisc_notes": "Result of the questionnaire item as originally collected.",
        "codelist_code": null,
        "order": 9
      },
      {
        "name": "QSORRESU",
        "label": "Original Units",
        "data_type": "Char",
        "core": "Perm",
        "cdisc_notes": "Original units of the result.",
        "codelist_code": null,
        "order": 10
      },
      {
        "name": "QSSTRESC",
        "label": "Character Result/Finding in Std Format",
        "data_type": "Char",
        "core": "Exp",
        "cdisc_notes": "Contains the result in a standard format.",
        "codelist_code": null,
        "order": 11
      },
      {
        "name": "QSSTRESN",
        "label": "Numeric Result/Finding in Standard Units",
        "data_type": "Num",
        "core": "Perm",
        "cdisc_notes": "Numeric result in standardized units.",
        "codelist_code": null,
        "order": 12
      },
      {
        "name": "QSSTRESU",
        "label": "Standard Units",
        "data_type": "Char",
        "core": "Perm",
        "cdisc_notes": "Standardized units.",
        "codelist_code": null,
        "order": 13
      },
      {
        "name": "QSDTC",
        "label": "Date/Time of Finding",
        "data_type": "Char",
        "core": "Exp",
        "cdisc_notes": "Date/time of QS collection in ISO 8601 format.",
        "codelist_code": null,
        "order": 14
      }
    ],
    "key_variables": null
  },
  "SC": {
    "domain": "SC",
    "description": "Subject Characteristics",
    "domain_class": "Findings",
    "structure": "One record per characteristic per subject",
    "variables": [
      {
        "name": "STUDYID",
        "label": "Study Identifier",
        "data_type": "Char",
        "core": "Req",
        "cdisc_notes": "Unique identifier for a study.",
        "codelist_code": null,
        "order": 1
      },
      {
        "name": "DOMAIN",
        "label": "Domain Abbreviation",
        "data_type": "Char",
        "core": "Req",
        "cdisc_notes": "Two-character abbreviation for the domain.",
        "codelist_code": "C66734",
        "order": 2
      },
      {
        "name": "USUBJID",
        "label": "Unique Subject Identifier",
        "data_type": "Char",
        "core": "Req",
        "cdisc_notes": "Identifier used to uniquely identify a subject across all studies.",
        "codelist_code": null,
        "order": 3
      },
      {
        "name": "SCSEQ",
        "label": "Sequence Number",
        "data_type": "Num",
        "core": "Req",
        "cdisc_notes": "Sequence number to ensure uniqueness within domain for a subject.",
        "codelist_code": null,
        "order": 4
      },
      {
        "name": "SCTESTCD",
        "label": "Subject Characteristic Short Name",
        "data_type": "Char",
        "core": "Req",
        "cdisc_notes": "Short name of the subject characteristic.",
        "codelist_code": null,
        "order": 5
      },
      {
        "name": "SCTEST",
        "label": "Subject Characteristic",
        "data_type": "Char",
        "core": "Req",
        "cdisc_notes": "Name of the subject characteristic.",
        "codelist_code": null,
        "order": 6
      },
      {
        "name": "SCCAT",
        "label": "Category for Subject Characteristic",
        "data_type": "Char",
        "core": "Perm",
        "cdisc_notes": "Used to categorize subject characteristics.",
        "codelist_code": null,
        "order": 7
      },
      {
        "name": "SCORRES",
        "label": "Result or Finding in Original Units",
        "data_type": "Char",
        "core": "Exp",
        "cdisc_notes": "Result of the subject characteristic as originally collected.",
        "codelist_code": null,
        "order": 8
      },
      {
        "name": "SCSTRESC",
        "label": "Character Result/Finding in Std Format",
        "data_type": "Char",
        "core": "Exp",
        "cdisc_notes": "Contains the result in a standard format.",
        "codelist_code": null,
        "order": 9
      },
      {
        "name": "SCSTRESN",
        "label": "Numeric Result/Finding in Standard Units",
        "data_type": "Num",
        "core": "Perm",
        "cdisc_notes": "Numeric result in standardized units.",
        "codelist_code": null,
        "order": 10
      }
    ],
    "key_variables": null
  },
  "FA": {
    "domain": "FA",
    "description": "Findings About",
    "domain_class": "Findings",
    "structure": "One record per finding per subject",
    "variables": [
      {
        "name": "STUDYID",
        "label": "Study Identifier",
        "data_type": "Char",
        "core": "Req",
        "cdisc_notes": "Unique identifier for a study.",
        "codelist_code": null,
        "order": 1
      },
      {
        "name": "DOMAIN",
        "label": "Domain Abbreviation",
        "data_type": "Char",
        "core": "Req",
        "cdisc_notes": "Two-character abbreviation for the domain.",
        "codelist_code": "C66734",
        "order": 2
      },
      {
        "name": "USUBJID",
        "label": "Unique Subject Identifier",
        "data_type": "Char",
        "core": "Req",
        "cdisc_notes": "Identifier used to uniquely identify a subject across all studies.",
        "codelist_code": null,
        "order": 3
      },
      {
        "name": "FASEQ",
        "label": "Sequence Number",
        "data_type": "Num",
        "core": "Req",
        "cdisc_notes": "Sequence number to ensure uniqueness within domain for a subject.",
        "codelist_code": null,
        "order": 4
      },
      {
        "name": "FATESTCD",
        "label": "Findings About Test Short Name",
        "data_type": "Char",
        "core": "Req",
        "cdisc_notes": "Short name of the findings about test.",
        "codelist_code": null,
        "order": 5
      },
      {
        "name": "FATEST",
        "label": "Findings About Test Name",
        "data_type": "Char",
        "core": "Req",
        "cdisc_notes": "Name of the findings about test.",
        "codelist_code": null,
        "order": 6
      },
      {
        "name": "FAOBJ",
        "label": "Object of the Observation",
        "data_type": "Char",
        "core": "Req",
        "cdisc_notes": "The object or event that is the focus of the finding.",
        "codelist_code": null,
        "order": 7
      },
      {
        "name": "FACAT",
        "label": "Category for Findings About",
        "data_type": "Char",
        "core": "Exp",
        "cdisc_notes": "Used to categorize findings about observations.",
        "codelist_code": null,
        "order": 8
      },
      {
        "name": "FAORRES",
        "label": "Result or Finding in Original Units",
        "data_type": "Char",
        "core": "Exp",
        "cdisc_notes": "Result of the finding as originally collected.",
        "codelist_code": null,
        "order": 9
      },
      {
        "name": "FASTRESC",
        "label": "Character Result/Finding in Std Format",
        "data_type": "Char",
        "core": "Exp",
        "cdisc_notes": "Contains the result in a standard format.",
        "codelist_code": null,
        "order": 10
      },
      {
        "name": "FADTC",
        "label": "Date/Time of Collection",
        "data_type": "Char",
        "core": "Exp",
        "cdisc_notes": "Date/time of collection in ISO 8601 format.",
        "codelist_code": null,
        "order": 11
      }
    ],
    "key_variables": null
  },
  "SV": {
    "domain": "SV",
    "description": "Subject Visits",
    "domain_class": "Special-Purpose",
    "structure": "One record per visit per subject",
    "variables": [
      {
        "name": "STUDYID",
        "label": "Study Identifier",
        "data_type": "Char",
        "core": "Req",
        "cdisc_notes": "Unique identifier for a study.",
        "codelist_code": null,
        "order": 1
      },
      {
        "name": "DOMAIN",
        "label": "Domain Abbreviation",
        "data_type": "Char",
        "core": "Req",
        "cdisc_notes": "Two-character abbreviation for the domain.",
        "codelist_code": "C66734",
        "order": 2
      },
      {
        "name": "USUBJID",
        "label": "Unique Subject Identifier",
        "data_type": "Char",
        "core": "Req",
        "cdisc_notes": "Identifier used to uniquely identify a subject across all studies.",
        "codelist_code": null,
        "order": 3
      },
      {
        "name": "VISITNUM",
        "label": "Visit Number",
        "data_type": "Num",
        "core": "Req",
        "cdisc_notes": "Clinical encounter number.",
        "codelist_code": null,
        "order": 4
      },
      {
        "name": "VISIT",
        "label": "Visit Name",
        "data_type": "Char",
        "core": "Exp",
        "cdisc_notes": "Protocol-defined name of the visit.",
        "codelist_code": null,
        "order": 5
      },
      {
        "name": "VISITDY",
        "label": "Planned Study Day of Visit",
        "data_type": "Num",
        "core": "Perm",
        "cdisc_notes": "Planned study day of the visit.",
        "codelist_code": null,
        "order": 6
      },
      {
        "name": "EPOCH",
        "label": "Epoch",
        "data_type": "Char",
        "core": "Perm",
        "cdisc_notes": "The epoch of the visit.",
        "codelist_code": "C99079",
        "order": 7
      },
      {
        "name": "SVSTDTC",
        "label": "Start Date/Time of Visit",
        "data_type": "Char",
        "core": "Exp",
        "cdisc_notes": "Start date/time of the visit in ISO 8601 format.",
        "codelist_code": null,
        "order": 8
      },
      {
        "name": "SVENDTC",
        "label": "End Date/Time of Visit",
        "data_type": "Char",
        "core": "Exp",
        "cdisc_notes": "End date/time of the visit in ISO 8601 format.",
        "codelist_code": null,
        "order": 9
      }
    ],
    "key_variables": null
  },
  "DA": {
    "domain": "DA",
    "description": "Drug Accountability",
    "domain_class": "Findings",
    "structure": "One record per dispensation per subject",
    "variables": [
      {
        "name": "STUDYID",
        "label": "Study Identifier",
        "data_type": "Char",
        "core": "Req",
        "cdisc_notes": "Unique identifier for a study.",
        "codelist_code": null,
        "order": 1
      },
      {
        "name": "DOMAIN",
        "label": "Domain Abbreviation",
        "data_type": "Char",
        "core": "Req",
        "cdisc_notes": "Two-character abbreviation for the domain.",
        "codelist_code": "C66734",
        "order": 2
      },
      {
        "name": "USUBJID",
        "label": "Unique Subject Identifier",
        "data_type": "Char",
        "core": "Req",
        "cdisc_notes": "Identifier used to uniquely identify a subject across all studies.",
        "codelist_code": null,
        "order": 3
      },
      {
        "name": "DASEQ",
        "label": "Sequence Number",
        "data_type": "Num",
        "core": "Req",
        "cdisc_notes": "Sequence number to ensure uniqueness within domain for a subject.",
        "codelist_code": null,
        "order": 4
      },
      {
        "name": "DATESTCD",
        "label": "Drug Accountability Test Short Name",
        "data_type": "Char",
        "core": "Req",
        "cdisc_notes": "Short name of the accountability test.",
        "codelist_code": null,
        "order": 5
      },
      {
        "name": "DATEST",
        "label": "Drug Accountability Test Name",
        "data_type": "Char",
        "core": "Req",
        "cdisc_notes": "Name of the accountability test.",
        "codelist_code": null,
        "order": 6
      },
      {
        "name": "DACAT",
        "label": "Category for Drug Accountability",
        "data_type": "Char",
        "core": "Perm",
        "cdisc_notes": "Used to categorize drug accountability records.",
        "codelist_code": null,
        "order": 7
      },
      {
        "name": "DAORRES",
        "label": "Result or Finding in Original Units",
        "data_type": "Char",
        "core": "Exp",
        "cdisc_notes": "Result in original units.",
        "codelist_code": null,
        "order": 8
      },
      {
        "name": "DAORRESU",
        "label": "Original Units",
        "data_type": "Char",
        "core": "Perm",
        "cdisc_notes": "Original units of the result.",
        "codelist_code": null,
        "order": 9
      },
      {
        "name": "DASTRESC",
        "label": "Character Result/Finding in Std Format",
        "data_type": "Char",
        "core": "Exp",
        "cdisc_notes": "Contains the result in a standard format.",
        "codelist_code": null,
        "order": 10
      },
      {
        "name": "DASTRESN",
        "label": "Numeric Result/Finding in Standard Units",
        "data_type": "Num",
        "core": "Perm",
        "cdisc_notes": "Numeric result in standardized units.",
        "codelist_code": null,
        "order": 11
      },
      {
        "name": "DADTC",
        "label": "Date/Time of Collection",
        "data_type": "Char",
        "core": "Exp",
        "cdisc_notes": "Date/time of collection in ISO 8601 format.",
        "codelist_code": null,
        "order": 12
      }
    ],
    "key_variables": null
  },
  "TS": {
    "domain": "TS",
    "description": "Trial Summary",
    "domain_class": "Trial Design",
    "structure": "One record per trial summary parameter value",
    "variables": [
      {
        "name": "STUDYID",
        "label": "Study Identifier",
        "data_type": "Char",
        "core": "Req",
        "cdisc_notes": "Unique identifier for a study.",
        "codelist_code": null,
        "order": 1
      },
      {
        "name": "DOMAIN",
        "label": "Domain Abbreviation",
        "data_type": "Char",
        "core": "Req",
        "cdisc_notes": "Two-character abbreviation for the domain.",
        "codelist_code": "C66734",
        "order": 2
      },
      {
        "name": "TSSEQ",
        "label": "Sequence Number",
        "data_type": "Num",
        "core": "Req",
        "cdisc_notes": "Sequence number given to ensure uniqueness of subject records within a domain.",
        "codelist_code": null,
        "order": 3
      },
      {
        "name": "TSGRPID",
        "label": "Group ID",
        "data_type": "Char",
        "core": "Perm",
        "cdisc_notes": "Used to tie together a block of related records in a single domain for a subject.",
        "codelist_code": null,
        "order": 4
      },
      {
        "name": "TSPARMCD",
        "label": "Trial Summary Parameter Short Name",
        "data_type": "Char",
        "core": "Req",
        "cdisc_notes": "Short name of the trial summary parameter. Examples: SSTDTC, SPONSOR, TITLE.",
        "codelist_code": "C66738",
        "order": 5
      },
      {
        "name": "TSPARM",
        "label": "Trial Summary Parameter",
        "data_type": "Char",
        "core": "Req",
        "cdisc_notes": "Term for the trial summary parameter.",
        "codelist_code": null,
        "order": 6
      },
      {
        "name": "TSVAL",
        "label": "Parameter Value",
        "data_type": "Char",
        "core": "Req",
        "cdisc_notes": "Value of the trial summary parameter.",
        "codelist_code": null,
        "order": 7
      },
      {
        "name": "TSVALNF",
        "label": "Parameter Null Flavor",
        "data_type": "Char",
        "core": "Perm",
        "cdisc_notes": "Null flavor for the value of the trial summary parameter, when TSVAL is null.",
        "codelist_code": null,
        "order": 8
      },
      {
        "name": "TSVALCD",
        "label": "Parameter Value Code",
        "data_type": "Char",
        "core": "Perm",
        "cdisc_notes": "Code corresponding to TSVAL from an external codelist.",
        "codelist_code": null,
        "order": 9
      },
      {
        "name": "TSVCDREF",
        "label": "Name of the Reference Terminology",
        "data_type": "Char",
        "core": "Perm",
        "cdisc_notes": "Name of the external codelist used to define TSVALCD.",
        "codelist_code": null,
        "order": 10
      },
      {
        "name": "TSVCDVER",
        "label": "Version of the Reference Terminology",
        "data_type": "Char",
        "core": "Perm",
        "cdisc_notes": "Version of the external codelist referenced in TSVCDREF.",
        "codelist_code": null,
        "order": 11
      }
    ],
    "key_variables": [
      "STUDYID",
      "TSPARMCD",
      "TSSEQ"
    ]
  },
  "TA": {
    "domain": "TA",
    "description": "Trial Arms",
    "domain_class": "Trial Design",
    "structure": "One record per planned element per arm",
    "variables": [
      {
        "name": "STUDYID",
        "label": "Study Identifier",
        "data_type": "Char",
        "core": "Req",
        "cdisc_notes": "Unique identifier for a study.",
        "codelist_code": null,
        "order": 1
      },
      {
        "name": "DOMAIN",
        "label": "Domain Abbreviation",
        "data_type": "Char",
        "core": "Req",
        "cdisc_notes": "Two-character abbreviation for the domain.",
        "codelist_code": "C66734",
        "order": 2
      },
      {
        "name": "ARMCD",
        "label": "Planned Arm Code",
        "data_type": "Char",
        "core": "Req",
        "cdisc_notes": "Short name of the arm, limited to 20 characters.",
        "codelist_code": null,
        "order": 3
      },
      {
        "name": "ARM",
        "label": "Description of Planned Arm",
        "data_type": "Char",
        "core": "Req",
        "cdisc_notes": "Name of the arm to which the subject was assigned.",
        "codelist_code": null,
        "order": 4
      },
      {
        "name": "TAETORD",
        "label": "Planned Order of Element within Arm",
        "data_type": "Num",
        "core": "Req",
        "cdisc_notes": "Number that gives the planned order of the element within the arm.",
        "codelist_code": null,
        "order": 5
      },
      {
        "name": "ETCD",
        "label": "Element Code",
        "data_type": "Char",
        "core": "Req",
        "cdisc_notes": "Short name of the element, limited to 8 characters.",
        "codelist_code": null,
        "order": 6
      },
      {
        "name": "ELEMENT",
        "label": "Description of Element",
        "data_type": "Char",
        "core": "Req",
        "cdisc_notes": "Name of the element.",
        "codelist_code": null,
        "order": 7
      },
      {
        "name": "TABRANCH",
        "label": "Branch",
        "data_type": "Char",
        "core": "Perm",
        "cdisc_notes": "Condition subject must meet to be assigned to the next element in the arm.",
        "codelist_code": null,
        "order": 8
      },
      {
        "name": "TATRANS",
        "label": "Transition Rule",
        "data_type": "Char",
        "core": "Perm",
        "cdisc_notes": "Rule for transition to the next element.",
        "codelist_code": null,
        "order": 9
      },
      {
        "name": "EPOCH",
        "label": "Epoch",
        "data_type": "Char",
        "core": "Perm",
        "cdisc_notes": "Epoch associated with the element in the arm.",
        "codelist_code": "C99079",
        "order": 10
      }
    ],
    "key_variables": [
      "STUDYID",
      "ARMCD",
      "TAETORD"
    ]
  },
  "TE": {
    "domain": "TE",
    "description": "Trial Elements",
    "domain_class": "Trial Design",
    "structure": "One record per planned element",
    "variables": [
      {
        "name": "STUDYID",
        "label": "Study Identifier",
        "data_type": "Char",
        "core": "Req",
        "cdisc_notes": "Unique identifier for a study.",
        "codelist_code": null,
        "order": 1
      },
      {
        "name": "DOMAIN",
        "label": "Domain Abbreviation",
        "data_type": "Char",
        "core": "Req",
        "cdisc_notes": "Two-character abbreviation for the domain.",
        "codelist_code": "C66734",
        "order": 2
      },
      {
        "name": "ETCD",
        "label": "Element Code",
        "data_type": "Char",
        "core": "Req",
        "cdisc_notes": "Short name of the element, limited to 8 characters.",
        "codelist_code": null,
        "order": 3
      },
      {
        "name": "ELEMENT",
        "label": "Description of Element",
        "data_type": "Char",
        "core": "Req",
        "cdisc_notes": "Name of the element.",
        "codelist_code": null,
        "order": 4
      },
      {
        "name": "TESTRL",
        "label": "Rule for Start of Element",
        "data_type": "Char",
        "core": "Req",
        "cdisc_notes": "Rule describing when the element starts.",
        "codelist_code": null,
        "order": 5
      },
      {
        "name": "TEENRL",
        "label": "Rule for End of Element",
        "data_type": "Char",
        "core": "Req",
        "cdisc_notes": "Rule describing when the element ends.",
        "codelist_code": null,
        "order": 6
      },
      {
        "name": "TEDUR",
        "label": "Planned Duration of Element",
        "data_type": "Char",
        "core": "Perm",
        "cdisc_notes": "Planned duration of the element in ISO 8601 duration format.",
        "codelist_code": null,
        "order": 7
      }
    ],
    "key_variables": [
      "STUDYID",
      "ETCD"
    ]
  },
  "TV": {
    "domain": "TV",
    "description": "Trial Visits",
    "domain_class": "Trial Design",
    "structure": "One record per planned visit per arm",
    "variables": [
      {
        "name": "STUDYID",
        "label": "Study Identifier",
        "data_type": "Char",
        "core": "Req",
        "cdisc_notes": "Unique identifier for a study.",
        "codelist_code": null,
        "order": 1
      },
      {
        "name": "DOMAIN",
        "label": "Domain Abbreviation",
        "data_type": "Char",
        "core": "Req",
        "cdisc_notes": "Two-character abbreviation for the domain.",
        "codelist_code": "C66734",
        "order": 2
      },
      {
        "name": "VISITNUM",
        "label": "Visit Number",
        "data_type": "Num",
        "core": "Req",
        "cdisc_notes": "Clinical encounter number.",
        "codelist_code": null,
        "order": 3
      },
      {
        "name": "VISIT",
        "label": "Visit Name",
        "data_type": "Char",
        "core": "Req",
        "cdisc_notes": "Protocol-defined description of a clinical encounter.",
        "codelist_code": null,
        "order": 4
      },
      {
        "name": "VISITDY",
        "label": "Planned Study Day of Visit",
        "data_type": "Num",
        "core": "Perm",
        "cdisc_notes": "Planned study day of the visit.",
        "codelist_code": null,
        "order": 5
      },
      {
        "name": "ARMCD",
        "label": "Planned Arm Code",
        "data_type": "Char",
        "core": "Req",
        "cdisc_notes": "Short name of the arm, limited to 20 characters.",
        "codelist_code": null,
        "order": 6
      },
      {
        "name": "ARM",
        "label": "Description of Planned Arm",
        "data_type": "Char",
        "core": "Req",
        "cdisc_notes": "Name of the arm to which the subject was assigned.",
        "codelist_code": null,
        "order": 7
      },
      {
        "name": "TVSTRL",
        "label": "Visit Start Rule",
        "data_type": "Char",
        "core": "Perm",
        "cdisc_notes": "Rule describing when the visit window opens.",
        "codelist_code": null,
        "order": 8
      },
      {
        "name": "TVENRL",
        "label": "Visit End Rule",
        "data_type": "Char",
        "core": "Perm",
        "cdisc_notes": "Rule describing when the visit window closes.",
        "codelist_code": null,
        "order": 9
      }
    ],
    "key_variables": [
      "STUDYID",
      "VISITNUM",
      "ARMCD"
    ]
  },
  "TI": {
    "domain": "TI",
    "description": "Trial Inclusion/Exclusion Criteria",
    "domain_class": "Trial Design",
    "structure": "One record per I/E criterion",
    "variables": [
      {
        "name": "STUDYID",
        "label": "Study Identifier",
        "data_type": "Char",
        "core": "Req",
        "cdisc_notes": "Unique identifier for a study.",
        "codelist_code": null,
        "order": 1
      },
      {
        "name": "DOMAIN",
        "label": "Domain Abbreviation",
        "data_type": "Char",
        "core": "Req",
        "cdisc_notes": "Two-character abbreviation for the domain.",
        "codelist_code": "C66734",
        "order": 2
      },
      {
        "name": "IETESTCD",
        "label": "Inclusion/Exclusion Criterion Short Name",
        "data_type": "Char",
        "core": "Req",
        "cdisc_notes": "Short name of the I/E criterion.",
        "codelist_code": null,
        "order": 3
      },
      {
        "name": "IETEST",
        "label": "Inclusion/Exclusion Criterion",
        "data_type": "Char",
        "core": "Req",
        "cdisc_notes": "Full text of the I/E criterion.",
        "codelist_code": null,
        "order": 4
      },
      {
        "name": "IECAT",
        "label": "Inclusion/Exclusion Category",
        "data_type": "Char",
        "core": "Req",
        "cdisc_notes": "Category: INCLUSION or EXCLUSION.",
        "codelist_code": null,
        "order": 5
      },
      {
        "name": "IESCAT",
        "label": "Inclusion/Exclusion Subcategory",
        "data_type": "Char",
        "core": "Perm",
        "cdisc_notes": "Further categorization of the criterion.",
        "codelist_code": null,
        "order": 6
      },
      {
        "name": "TIRL",
        "label": "Inclusion/Exclusion Criterion Rule",
        "data_type": "Char",
        "core": "Perm",
        "cdisc_notes": "Rule associated with the I/E criterion.",
        "codelist_code": null,
        "order": 7
      },
      {
        "name": "TIVERS",
        "label": "Protocol Criteria Versions",
        "data_type": "Char",
        "core": "Perm",
        "cdisc_notes": "The protocol amendment version(s) to which the criterion applies.",
        "codelist_code": null,
        "order": 8
      }
    ],
    "key_variables": [
      "STUDYID",
      "IETESTCD"
    ]
  },
  "SE": {
    "domain": "SE",
    "description": "Subject Elements",
    "domain_class": "Special-Purpose",
    "structure": "One record per actual element per subject",
    "variables": [
      {
        "name": "STUDYID",
        "label": "Study Identifier",
        "data_type": "Char",
        "core": "Req",
        "cdisc_notes": "Unique identifier for a study.",
        "codelist_code": null,
        "order": 1
      },
      {
        "name": "DOMAIN",
        "label": "Domain Abbreviation",
        "data_type": "Char",
        "core": "Req",
        "cdisc_notes": "Two-character abbreviation for the domain.",
        "codelist_code": "C66734",
        "order": 2
      },
      {
        "name": "USUBJID",
        "label": "Unique Subject Identifier",
        "data_type": "Char",
        "core": "Req",
        "cdisc_notes": "Identifier used to uniquely identify a subject across all studies.",
        "codelist_code": null,
        "order": 3
      },
      {
        "name": "SESEQ",
        "label": "Sequence Number",
        "data_type": "Num",
        "core": "Req",
        "cdisc_notes": "Sequence number to ensure uniqueness within a domain for a subject.",
        "codelist_code": null,
        "order": 4
      },
      {
        "name": "ETCD",
        "label": "Element Code",
        "data_type": "Char",
        "core": "Exp",
        "cdisc_notes": "Short name of the element, limited to 8 characters.",
        "codelist_code": null,
        "order": 5
      },
      {
        "name": "ELEMENT",
        "label": "Description of Element",
        "data_type": "Char",
        "core": "Exp",
        "cdisc_notes": "Name of the element.",
        "codelist_code": null,
        "order": 6
      },
      {
        "name": "SESTDTC",
        "label": "Subject Element Start Date/Time",
        "data_type": "Char",
        "core": "Exp",
        "cdisc_notes": "Start date/time of the element for the subject in ISO 8601 format.",
        "codelist_code": null,
        "order": 7
      },
      {
        "name": "SEENDTC",
        "label": "Subject Element End Date/Time",
        "data_type": "Char",
        "core": "Exp",
        "cdisc_notes": "End date/time of the element for the subject in ISO 8601 format.",
        "codelist_code": null,
        "order": 8
      },
      {
        "name": "TAESSION",
        "label": "Planned Element within Arm Session",
        "data_type": "Char",
        "core": "Perm",
        "cdisc_notes": "Planned element within arm session.",
        "codelist_code": null,
        "order": 9
      },
      {
        "name": "EPOCH",
        "label": "Epoch",
        "data_type": "Char",
        "core": "Perm",
        "cdisc_notes": "Epoch associated with the element.",
        "codelist_code": "C99079",
        "order": 10
      }
    ],
    "key_variables": [
      "STUDYID",
      "USUBJID",
      "ETCD",
      "SESTDTC"
    ]
  },
  "CO": {
    "domain": "CO",
    "description": "Comments",
    "domain_class": "Special-Purpose",
    "structure": "One record per comment per subject",
    "variables": [
      {
        "name": "STUDYID",
        "label": "Study Identifier",
        "data_type": "Char",
        "core": "Req",
        "cdisc_notes": "Unique identifier for a study.",
        "codelist_code": null,
        "order": 1
      },
      {
        "name": "DOMAIN",
        "label": "Domain Abbreviation",
        "data_type": "Char",
        "core": "Req",
        "cdisc_notes": "Two-character abbreviation for the domain.",
        "codelist_code": "C66734",
        "order": 2
      },
      {
        "name": "USUBJID",
        "label": "Unique Subject Identifier",
        "data_type": "Char",
        "core": "Perm",
        "cdisc_notes": "Identifier used to uniquely identify a subject across all studies.",
        "codelist_code": null,
        "order": 3
      },
      {
        "name": "COSEQ",
        "label": "Sequence Number",
        "data_type": "Num",
        "core": "Req",
        "cdisc_notes": "Sequence number to ensure uniqueness within a domain for a subject.",
        "codelist_code": null,
        "order": 4
      },
      {
        "name": "RDOMAIN",
        "label": "Related Domain Abbreviation",
        "data_type": "Char",
        "core": "Perm",
        "cdisc_notes": "Two-character abbreviation for the related domain.",
        "codelist_code": "C66734",
        "order": 5
      },
      {
        "name": "IDVAR",
        "label": "Identifying Variable",
        "data_type": "Char",
        "core": "Perm",
        "cdisc_notes": "Identifying variable in the parent dataset.",
        "codelist_code": null,
        "order": 6
      },
      {
        "name": "IDVARVAL",
        "label": "Identifying Variable Value",
        "data_type": "Char",
        "core": "Perm",
        "cdisc_notes": "Value of the identifying variable.",
        "codelist_code": null,
        "order": 7
      },
      {
        "name": "COREF",
        "label": "Comment Reference",
        "data_type": "Char",
        "core": "Perm",
        "cdisc_notes": "Reference identifier for the comment.",
        "codelist_code": null,
        "order": 8
      },
      {
        "name": "CODTC",
        "label": "Date/Time of Comment",
        "data_type": "Char",
        "core": "Perm",
        "cdisc_notes": "Date/time of the comment in ISO 8601 format.",
        "codelist_code": null,
        "order": 9
      },
      {
        "name": "COVAL",
        "label": "Comment",
        "data_type": "Char",
        "core": "Req",
        "cdisc_notes": "The text of the comment.",
        "codelist_code": null,
        "order": 10
      },
      {
        "name": "COEVAL",
        "label": "Evaluator",
        "data_type": "Char",
        "core": "Perm",
        "cdisc_notes": "Role of the evaluator who provided the comment.",
        "codelist_code": null,
        "order": 11
      }
    ],
    "key_variables": [
      "STUDYID",
      "USUBJID",
      "COSEQ"
    ]
  },
  "SUPPQUAL": {
    "domain": "SUPPQUAL",
    "description": "Supplemental Qualifiers",
    "domain_class": "Special-Purpose",
    "structure": "One record per supplemental qualifier value per subject per parent domain record",
    "variables": [
      {
        "name": "STUDYID",
        "label": "Study Identifier",
        "data_type": "Char",
        "core": "Req",
        "cdisc_notes": "Unique identifier for a study.",
        "codelist_code": null,
        "order": 1
      },
      {
        "name": "RDOMAIN",
        "label": "Related Domain Abbreviation",
        "data_type": "Char",
        "core": "Req",
        "cdisc_notes": "Two-character abbreviation for the related domain.",
        "codelist_code": "C66734",
        "order": 2
      },
      {
        "name": "USUBJID",
        "label": "Unique Subject Identifier",
        "data_type": "Char",
        "core": "Req",
        "cdisc_notes": "Identifier used to uniquely identify a subject across all studies.",
        "codelist_code": null,
        "order": 3
      },
      {
        "name": "IDVAR",
        "label": "Identifying Variable",
        "data_type": "Char",
        "core": "Exp",
        "cdisc_notes": "Identifying variable in the parent dataset (e.g., AESEQ).",
        "codelist_code": null,
        "order": 4
      },
      {
        "name": "IDVARVAL",
        "label": "Identifying Variable Value",
        "data_type": "Char",
        "core": "Exp",
        "cdisc_notes": "Value of the identifying variable.",
        "codelist_code": null,
        "order": 5
      },
      {
        "name": "QNAM",
        "label": "Qualifier Variable Name",
        "data_type": "Char",
        "core": "Req",
        "cdisc_notes": "The short name of the supplemental qualifier variable, max 8 characters.",
        "codelist_code": null,
        "order": 6
      },
      {
        "name": "QLABEL",
        "label": "Qualifier Variable Label",
        "data_type": "Char",
        "core": "Req",
        "cdisc_notes": "Label for the supplemental qualifier variable, max 40 characters.",
        "codelist_code": null,
        "order": 7
      },
      {
        "name": "QVAL",
        "label": "Data Value",
        "data_type": "Char",
        "core": "Req",
        "cdisc_notes": "Value of the supplemental qualifier variable.",
        "codelist_code": null,
        "order": 8
      },
      {
        "name": "QORIG",
        "label": "Origin",
        "data_type": "Char",
        "core": "Req",
        "cdisc_notes": "Origin of the data value (e.g., CRF, ASSIGNED, DERIVED, PROTOCOL).",
        "codelist_code": null,
        "order": 9
      },
      {
        "name": "QEVAL",
        "label": "Evaluator",
        "data_type": "Char",
        "core": "Exp",
        "cdisc_notes": "Role of the evaluator who provided the data.",
        "codelist_code": null,
        "order": 10
      }
    ],
    "key_variables": [
      "STUDYID",
      "RDOMAIN",
      "USUBJID",
      "IDVAR",
      "IDVARVAL",
      "QNAM"
    ]
  }
}
